{
  "resourceType": "AdverseEvent",
  "meta": {
    "profile": ["https://healthsamurai.github.io/ig-ae/StructureDefinition/AdverseEvent"]
  },
  "contained": [{
      "resourceType": "Location",
      "id": "location",
      "name": "UK"
    }, {
      "resourceType": "RelatedPerson",
      "id": "relPerson",
      "patient": {
        "reference": "#patient"
      },
      "extension": [{
          "url": "https://healthsamurai.github.io/ig-ae/StructureDefinition/RelatedPerson-consentToContactReporter",
          "valueBoolean": false
        }
      ],
      "name": [{
          "extension": [{
              "url": "https://healthsamurai.github.io/ig-ae/StructureDefinition/HumanName-salutation",
              "valueCodeableConcept": {
                "coding": [{
                    "code": "Mr",
                    "system": "https://healthsamurai.github.io/ig-ae/CodeSystem/humanname-salutation",
                    "display": "Monsieur"
                  }
                ],
                "text": "Mr."
              }
            }
          ],
          "family": "Flintstone",
          "given": ["Fred"]
        }
      ],
      "relationship": [{
          "text": "Father"
        }
      ],
      "telecom": [{
          "system": "phone",
          "value": "0201231234"
        }, {
          "system": "email",
          "value": "fred.Flintstone@astrazeneca.com"
        }
      ],
      "address": [{
          "extension": [{
              "url": "https://healthsamurai.github.io/ig-ae/StructureDefinition/Address-region",
              "valueCodeableConcept": {
                "coding": [{
                    "code": "01",
                    "system": "https://healthsamurai.github.io/ig-ae/CodeSystem/address-region",
                    "display": "Middlesex"
                  }
                ],
                "text": "Middlesex"
              }
            }
          ],
          "line": ["APARTMENT 3", "21 Edgware Road"],
          "city": "London",
          "postalCode": "SW14 0EG",
          "country": "UK"
        }
      ]
    }, {
      "resourceType": "Patient",
      "id": "patient",
      "extension": [{
          "url": "https://healthsamurai.github.io/ig-ae/StructureDefinition/Patient-consentToContactReporter",
          "valueBoolean": false
        }, {
          "url": "https://healthsamurai.github.io/ig-ae/StructureDefinition/Patient-patientAge",
          "valueInteger": 35
        }, {
          "url": "https://healthsamurai.github.io/ig-ae/StructureDefinition/Patient-ageGroup",
          "valueCodeableConcept": {
            "coding": [{
                "code": "ADULT",
                "system": "https://healthsamurai.github.io/ig-ae/CodeSystem/ageGroup",
                "display": "Adulte"
              }
            ],
            "text": "Adult"
          }
        }, {
          "url": "https://healthsamurai.github.io/ig-ae/StructureDefinition/Patient-gender",
          "valueCodeableConcept": {
            "coding": [{
                "code": "MALE",
                "system": "https://healthsamurai.github.io/ig-ae/CodeSystem/gender",
                "display": "Masculin"
              }
            ],
            "text": "Male"
          }
        }, {
          "url": "https://healthsamurai.github.io/ig-ae/StructureDefinition/Patient-ethnicity",
          "valueCodeableConcept": {
            "coding": [{
                "code": "D",
                "system": "https://healthsamurai.github.io/ig-ae/CodeSystem/ethnicity",
                "display": "Asiane"
              }
            ],
            "text": "Asian"
          }
        }
      ],
      "name": [{
          "extension": [{
              "url": "https://healthsamurai.github.io/ig-ae/StructureDefinition/HumanName-salutation",
              "valueCodeableConcept": {
                "coding": [{
                    "code": "Mr",
                    "system": "https://healthsamurai.github.io/ig-ae/CodeSystem/humanname-salutation",
                    "display": "Monsieur"
                  }
                ],
                "text": "Mr."
              }
            }
          ],
          "family": "Flintstone",
          "given": ["Fred"]
        }
      ],
      "telecom": [{
          "system": "phone",
          "value": "0201231234"
        }, {
          "system": "email",
          "value": "fred.Flintstone@astrazeneca.com"
        }
      ],
      "address": [{
          "extension": [{
              "url": "https://healthsamurai.github.io/ig-ae/StructureDefinition/Address-region",
              "valueCodeableConcept": {
                "coding": [{
                    "code": "01",
                    "system": "https://healthsamurai.github.io/ig-ae/CodeSystem/address-region",
                    "display": "Middlesex"
                  }
                ],
                "text": "Middlesex"
              }
            }
          ],
          "line": ["APARTMENT 3", "21 Edgware Road"],
          "city": "London",
          "postalCode": "SW14 0EG",
          "country": "UK"
        }
      ],
      "identifier": [{
          "value": "RELTIO-ID-123456"
        }
      ],
      "birthDate": "1980-10-19",
      "deceasedDateTime": "2020-12-31"
    }, {
      "resourceType": "PractitionerRole",
      "id": "practRoleAssist",
      "code": [{
          "coding": [{
              "display": "Administrative healthcare staff",
              "system": "http://snomed.info/sct",
              "code": "224608005"
            }
          ],
          "text": "Medical office worker EN"
        }
      ],
      "practitioner": {
        "reference": "#practitionerAssist"
      }
    }, {
      "resourceType": "Practitioner",
      "id": "practitionerAssist",
      "name": [{
          "extension": [{
              "url": "https://healthsamurai.github.io/ig-ae/StructureDefinition/HumanName-salutation",
              "valueCodeableConcept": {
                "coding": [{
                    "code": "Miss",
                    "system": "https://healthsamurai.github.io/ig-ae/CodeSystem/humanname-salutation",
                    "display": "Madame"
                  }
                ],
                "text": "Miss"
              }
            }
          ],
          "given": ["Fred"],
          "family": "Flintstone"
        }
      }
    ], {
      "resourceType": "PractitionerRole",
      "id": "practRoleHCP",
      "code": [{
          "coding": [{
              "display": "Medical doctor",
              "system": "http://snomed.info/sct",
              "code": "112247003"
            }
          ],
          "text": "Doctor EN"
        }
      ],
      "specialty": [{
          "coding": [{
              "display": "Emergency Medicine",
              "system": "http://snomed.info/sct",
              "code": "773568002"
            }
          ],
          "text": "Emergency Medicine English"
        }
      ],
      "practitioner": {
        "reference": "#practitionerHCP"
      },
      "organization": {
        "reference": "#orgHCP"
      }
    }, {
      "resourceType": "Practitioner",
      "id": "practitionerHCP",
      "extension": [{
          "url": "https://healthsamurai.github.io/ig-ae/StructureDefinition/Practitioner-consentToContactPractitioner",
          "valueBoolean": false
        }
      ],
      "identifier": [{
          "value": "RELTIO-ID-123456"
        }
      ],
      "name": [{
          "extension": [{
              "url": "https://healthsamurai.github.io/ig-ae/StructureDefinition/HumanName-salutation",
              "valueCodeableConcept": {
                "coding": [{
                    "code": "Dr",
                    "system": "https://healthsamurai.github.io/ig-ae/CodeSystem/humanname-salutation",
                    "display": "Docteur"
                  }
                ],
                "text": "Dr."
              }
            }
          ],
          "given": ["Barney"],
          "family": "Rubble"
        }
      ],
      "telecom": [{
          "system": "phone",
          "value": "0201231234"
        }, {
          "system": "email",
          "value": "manjunath.muyida@astrazeneca.com"
        }, {
          "system": "other",
          "value": "ext. 456"
        }
      ],
      "address": [{
          "extension": [{
              "url": "https://healthsamurai.github.io/ig-ae/StructureDefinition/Address-region",
              "valueCodeableConcept": {
                "coding": [{
                    "code": "CHE",
                    "system": "https://healthsamurai.github.io/ig-ae/CodeSystem/address-region",
                    "display": "Cheshire"
                  }
                ],
                "text": "Cheshire"
              }
            }
          ],
          "line": ["Building 4", "1 High Street"],
          "city": "Macclesfield",
          "postalCode": "SW14 0EG",
          "country": "UK"
        }
      ]
    }, {
      "resourceType": "Organization",
      "id": "orgHCP",
      "name": "Macclesfield Hospital",
      "alias": ["Respiratory Unit"]
    }, {
      "resourceType": "PractitionerRole",
      "id": "practRoleAZEmployee",
      "code": [{
          "text": "AZ Employee"
        }
      ],
      "identifier": [{
          "value": "kcvl999"
        }
      ],
      "practitioner": {
        "reference": "#practitionerAZEmployee"
      },
      "organization": {
        "reference": "#orgAZVendor"
      }
    }, {
      "resourceType": "Practitioner",
      "id": "practitionerAZEmployee",
      "name": [{
          "given": ["Fred"],
          "family": "Flintstone"
        }
      ],
      "telecom": [{
          "system": "email",
          "value": "manjunath.muyida@astrazeneca.com"
        }
      ]
    }, {
      "resourceType": "Organization",
      "id": "orgAZVendor",
      "name": "Vendor name",
      "contact": [{
          "name": {
            "given": ["AZ"],
            "family": "Vendor"
          },
          "telecom": [{
              "system": "email",
              "value": "az.vendor@astrazeneca.com"
            }
          ]
        }
      ]
    }, {
      "resourceType": "Observation",
      "id": "obser-patienthistory",
      "status": "final",
      "code": {
        "coding": [{
            "code": "10164-2",
            "system": "http://loinc.org",
            "display": "History of Present illness Narrative"

          }
        ]
      }
    }, {
      "resourceType": "Observation",
      "id": "obser-height",
      "status": "final",
      "code": {
        "coding": [{
            "code": "8302-2",
            "system": "http://loinc.org",
            "display": "Body height"
          }
        ]
      },
      "valueQuantity": {
        "value": 170,
        "unit": "cm"
      }
    }, {
      "resourceType": "Observation",
      "id": "obser-weight",
      "status": "final",
      "code": {
        "coding": [{
            "code": "29463-7",
            "system": "http://loinc.org",
            "display": "Body weight"
          }
        ]
      },
      "valueQuantity": {
        "value": 75,
        "unit": "kg"
      }
    }, {
      "resourceType": "Observation",
      "id": "obser-preg",
      "status": "final",
      "code": {
        "coding": [{
            "code": "11449-6",
            "system": "http://loinc.org"
          }
        ]
      },
      "component": [{
          "code": {
            "coding": [{
                "code": "11449-6",
                "system": "http://loinc.org"
              }
            ]
          },
          "valueString": "Had 9 kids already with no issues"
        }
      ]
    }, {
      "resourceType": "Observation",
      "id": "obser-autopsy01",
      "status": "final",
      "code": {
        "coding": [{
            "code": "85699-7",
            "system": "http://loinc.org",
            "display": "Autopsy was performed"

          }
        ]
      },
      "valueBoolean": true,
      "component": [{
          "code": {
            "text": "Cause of death confirmed"
          },
          "valueBoolean": false
        }
      ]
    }, {
      "resourceType": "Condition",
      "id": "resultingCond01",
      "extension": [{
          "url": "https://healthsamurai.github.io/ig-ae/StructureDefinition/Condition-duration",
          "valueString": "1 day"
        }, {
          "url": "https://healthsamurai.github.io/ig-ae/StructureDefinition/Condition-outcome",
          "valueCodeableConcept": {
            "coding": [{
                "code": "recovered",
                "system": "https://healthsamurai.github.io/ig-ae/CodeSystem/condition-outcome",
                "display": "Recovered"
              }
            ],
            "text": "Recovered"
          }
        }, {
          "url": "https://healthsamurai.github.io/ig-ae/StructureDefinition/Condition-resultingConditionDeath",
          "valueBoolean": false
        }, {
          "url": "https://healthsamurai.github.io/ig-ae/StructureDefinition/Condition-resultingConditionLifeThreat",
          "valueBoolean": false
        }, {
          "url": "https://healthsamurai.github.io/ig-ae/StructureDefinition/Condition-resultingConditionBirthDefect",
          "valueBoolean": false
        }, {
          "url": "https://healthsamurai.github.io/ig-ae/StructureDefinition/Condition-resultingConditionHospitalization",
          "valueBoolean": false
        }, {
          "url": "https://healthsamurai.github.io/ig-ae/StructureDefinition/Condition-resultingConditionDisability",
          "valueBoolean": false
        }, {
          "url": "https://healthsamurai.github.io/ig-ae/StructureDefinition/Condition-resultingConditionImportantMedicalEvent",
          "valueBoolean": false
        }, {
          "url": "https://healthsamurai.github.io/ig-ae/StructureDefinition/Condition-resultingConditionRequiredIntervention",
          "valueBoolean": false
        }
      ],
      "identifier": [{
          "value": "cond01"
        }
      ],
      "subject": {
        "reference": "#patient"
      },
      "encounter": {
        "reference": "#encounter01"
      },
      "onsetPeriod": {
        "start": "2020-06-30",
        "end": "2020-07-05"
      },
      "stage": [{
          "assessment": [{
              "reference": "#obser-autopsy01"
            }
          ]
        }
      ]
    }, {
      "resourceType": "Encounter",
      "id": "encounter01",
      "class": {
        "code": "IMP",
        "system": "http://terminology.hl7.org/CodeSystem/v3-ActCode",
        "display": "inpatient encounter"
      },
      "status": "arrived",
      "period": {
        "start": "2020-04-30",
        "end": "2020-05-01"
      }
    }, {
      "resourceType": "Condition",
      "id": "resultingCond02",
      "extension": [{
          "url": "https://healthsamurai.github.io/ig-ae/StructureDefinition/Condition-duration",
          "valueString": "1 day"
        }, {
          "url": "https://healthsamurai.github.io/ig-ae/StructureDefinition/Condition-outcome",
          "valueCodeableConcept": {
            "coding": [{
                "code": "recovered",
                "system": "https://healthsamurai.github.io/ig-ae/CodeSystem/condition-outcome",
                "display": "Recovered"
              }
            ],
            "text": "Recovered"
          }
        }, {
          "url": "https://healthsamurai.github.io/ig-ae/StructureDefinition/Condition-resultingConditionDeath",
          "valueBoolean": false
        }, {
          "url": "https://healthsamurai.github.io/ig-ae/StructureDefinition/Condition-resultingConditionLifeThreat",
          "valueBoolean": false
        }, {
          "url": "https://healthsamurai.github.io/ig-ae/StructureDefinition/Condition-resultingConditionBirthDefect",
          "valueBoolean": false
        }, {
          "url": "https://healthsamurai.github.io/ig-ae/StructureDefinition/Condition-resultingConditionHospitalization",
          "valueBoolean": false
        }, {
          "url": "https://healthsamurai.github.io/ig-ae/StructureDefinition/Condition-resultingConditionDisability",
          "valueBoolean": false
        }, {
          "url": "https://healthsamurai.github.io/ig-ae/StructureDefinition/Condition-resultingConditionImportantMedicalEvent",
          "valueBoolean": false
        }, {
          "url": "https://healthsamurai.github.io/ig-ae/StructureDefinition/Condition-resultingConditionRequiredIntervention",
          "valueBoolean": false
        }
      ],
      "identifier": [{
          "value": "cond02"
        }
      ],
      "subject": {
        "reference": "#patient"
      },
      "encounter": {
        "reference": "#encounter02"
      },
      "onsetPeriod": {
        "start": "2020-06-30",
        "end": "2020-07-05"
      }
    }, {
      "resourceType": "Encounter",
      "id": "encounter02",
      "class": {
        "code": "IMP",
        "system": "http://terminology.hl7.org/CodeSystem/v3-ActCode",
        "display": "inpatient encounter"
      },
      "status": "arrived",
      "period": {
        "start": "2020-04-30",
        "end": "2020-05-01"
      }
    }, {
      "resourceType": "MedicationAdministration",
      "id": "medicationAdministration01",
      "status": "completed",
      "subject": {
        "reference": "#patient"
      },
      "extension": [{
          "url": "https://healthsamurai.github.io/ig-ae/StructureDefinition/MedicationAdministration-actionTaken",
          "valueCodeableConcept": {
            "coding": [{
                "code": "3",
                "display": "Increased"
              }
            ],
            "text": "Increased"
          }
        }, {
          "url": "https://healthsamurai.github.io/ig-ae/StructureDefinition/MedicationAdministration-operatorDevice",
          "valueCodeableConcept": {
            "coding": [{
                "code": "PATIENT",
                "display": "Patiente"
              }
            ],
            "text": "Patient"
          }
        }, {
          "url": "https://healthsamurai.github.io/ig-ae/StructureDefinition/MedicationAdministration-operatorDeviceOther",
          "valueString": "Nurse"
        }, {
          "url": "https://healthsamurai.github.io/ig-ae/StructureDefinition/MedicationAdministration-productType",
          "valueString": "D"
        }
      ],
      "medicationReference": {
        "reference": "#medication01"
      },
      "dosage": {
        "extension": [{
            "url": "https://healthsamurai.github.io/ig-ae/StructureDefinition/MedicationAdministration-unit",
            "valueCodeableConcept": {
              "coding": [{
                  "code": "g",
                  "display": "Grammes"
                }
              ],
              "text": "Grams"
            }
          }, {
            "url": "https://healthsamurai.github.io/ig-ae/StructureDefinition/MedicationAdministration-frequency",
            "valueCodeableConcept": {
              "coding": [{
                  "code": "DAILY",
                  "display": "Daily"
                }
              ],
              "text": "Daily"
            }
          }
        ],
        "route": {
          "coding": [{
              "code": "46713006",
              "display": "How is the product being taken local language"
            }
          ],
          "text": "How taken english version"
        },
        "dose": {
          "value": 1
        }
      },
      "effectivePeriod": {
        "start": "2019-12-31",
        "end": "2020-12-31"
      },
      "device": [{
          "reference": "#device01"
        }
      ]
    }, {
      "resourceType": "Medication",
      "id": "medication01",
      "code": {
        "text": "Bydureon"
      },
      "batch": {
        "lotNumber": "lotNumberhere",
        "expirationDate": "2020-12-31"
      }
    }, {
      "resourceType": "Device",
      "id": "device01",
      "udiCarrier": [{
          "deviceIdentifier": "UDI number entered"
        }
      ]
    }, {
      "resourceType": "MedicationAdministration",
      "id": "medicationAdministration02",
      "status": "completed",
      "subject": {
        "reference": "#patient"
      },
      "extension": [{
          "url": "https://healthsamurai.github.io/ig-ae/StructureDefinition/MedicationAdministration-actionTaken",
          "valueCodeableConcept": {
            "coding": [{
                "code": "3",
                "display": "Increased"
              }
            ],
            "text": "Increased"
          }
        }, {
          "url": "https://healthsamurai.github.io/ig-ae/StructureDefinition/MedicationAdministration-operatorDevice",
          "valueCodeableConcept": {
            "coding": [{
                "code": "PATIENT",
                "display": "Patiente"
              }
            ],
            "text": "Patient"
          }
        }, {
          "url": "https://healthsamurai.github.io/ig-ae/StructureDefinition/MedicationAdministration-operatorDeviceOther",
          "valueString": "Nurse"
        }, {
          "url": "https://healthsamurai.github.io/ig-ae/StructureDefinition/MedicationAdministration-productType",
          "valueString": "D"
        }
      ],
      "medicationReference": {
        "reference": "#medication02"
      },
      "dosage": {
        "extension": [{
            "url": "https://healthsamurai.github.io/ig-ae/StructureDefinition/MedicationAdministration-unit",
            "valueCodeableConcept": {
              "coding": [{
                  "code": "g",
                  "display": "Grammes"
                }
              ],
              "text": "Grams"
            }
          }, {
            "url": "https://healthsamurai.github.io/ig-ae/StructureDefinition/MedicationAdministration-frequency",
            "valueCodeableConcept": {
              "coding": [{
                  "code": "DAILY",
                  "display": "Daily"
                }
              ],
              "text": "Daily"
            }
          }
        ],
        "route": {
          "text": "How is the product being taken EN",
          "coding": [{
              "code": "46713006",
              "display": "How is the product being taken local language"
            }
          ]
        },
        "dose": {
          "value": 1
        }
      },
      "effectivePeriod": {
        "start": "2019-12-31",
        "end": "2020-12-31"
      },
      "device": [{
          "reference": "#device02"
        }
      ]
    }, {
      "resourceType": "Medication",
      "id": "medication02",
      "code": {
        "text": "Asprin"
      },
      "batch": {
        "lotNumber": "lotNumberhere",
        "expirationDate": "2020-12-31"
      }
    }, {
      "resourceType": "Device",
      "id": "device02",
      "udiCarrier": [{
          "deviceIdentifier": "UDI number entered"
        }
      ]
    }, {
      "resourceType": "DocumentReference",
      "id": "pdf1",
      "status": "current",
      "description": "PDFOriginalForm.pdf",
      "content": [{
          "attachment": {
            "data": "QkFTRTY0LUVOQ09ERUQtUERGLURBVEEtR09FUy1JTi1IRVJF",
            "contentType": "application/pdf"
          }
        }
      ]
    }
    ],
    "id": "AE1",
    "extension": [{
        "url": "https://healthsamurai.github.io/ig-ae/StructureDefinition/AdverseEvent-reporterType",
        "valueString": "0"
      }, {
        "url": "https://healthsamurai.github.io/ig-ae/StructureDefinition/AdverseEvent-programNumber",
        "valueString": "prog12345"
      }, {
        "url": "https://healthsamurai.github.io/ig-ae/StructureDefinition/AdverseEvent-lateReason",
        "valueString": "Had a day off so was late reporting this"
      }, {
        "url": "https://healthsamurai.github.io/ig-ae/StructureDefinition/AdverseEvent-localReferenceNumber",
        "valueString": "locrefnum1"
      }, {
        "url": "https://healthsamurai.github.io/ig-ae/StructureDefinition/AdverseEvent-sourceType",
        "valueCode": "spont"
      }, {
        "url": "https://healthsamurai.github.io/ig-ae/StructureDefinition/AdverseEvent-AZEmployeeReporter",
        "valueString": "0"
      }, {
        "url": "https://healthsamurai.github.io/ig-ae/StructureDefinition/AdverseEvent-surveyStatus",
        "valueCode": "req-det"
      }
    ],
    "text": {
      "div": "<div xmlns=\"http://www.w3.org/1999/xhtml\" lang=\"en-GB\" xml:lang=\"en-GB\">Text message</div>",
      "status": "generated"
    },
    "actuality": "actual",
    "location": {
      "reference": "#location"
    },
    "language": "en-GB",
    "recordedDate": "2020-07-21T14:50:23Z",
    "recorder": {
      "reference": "#relPerson"
    },
    "subject": {
      "reference": "#patient"
    },
    "contributor": [{
        "reference": "#practRoleAssist"
      }, {
        "reference": "#practRoleHCP"
      }, {
        "reference": "#practRoleAZEmployee"
      }
    ],
    "detected": "2020-07-21T14:50:23Z",
    "resultingCondition": [{
        "reference": "#resultingCond01"
      }, {
        "reference": "#resultingCond02"
      }
    ],
    "suspectEntity": [{
        "instance": {
          "reference": "#medicationAdministration01"
        },
        "causality": [{
            "extension": [{
                "url": "https://healthsamurai.github.io/ig-ae/StructureDefinition/AdverseEvent-causalDrug",
                "valueString": "Y"
              }, {
                "url": "https://healthsamurai.github.io/ig-ae/StructureDefinition/AdverseEvent-positiveDechallenge",
                "valueString": "Y"
              }, {
                "url": "https://healthsamurai.github.io/ig-ae/StructureDefinition/AdverseEvent-rechallenge",
                "valueString": "Y"
              }, {
                "url": "https://healthsamurai.github.io/ig-ae/StructureDefinition/AdverseEvent-positiveRechallenge",
                "valueString": "Y"
              }
            ],
            "assessment": {
              "text": "cond01"
            }
          }
        ]
      }, {
        "instance": {
          "reference": "#medicationAdministration02"
        }
      }
    ],
    "subjectMedicalHistory": [{
        "reference": "#obser-height"
      }, {
        "reference": "#obser-weight"
      }, {
        "reference": "#obser-preg"
      }, {
        "reference": "#obser-patienthistory"
      }
    ],
    "referenceDocument": [{
        "reference": "#pdf1"
      }
    ]
  }
