{
  "resourceType": "Communication",
  "meta": {
    "profile": ["https://healthsamurai.github.io/ig-ae/StructureDefinition/Communication"]
  },
  "contained": [{
      "resourceType": "Location",
      "id": "location",
      "name": "UK"
    }, {
      "resourceType": "PractitionerRole",
      "id": "practRoleReferrer",
      "practitioner": {
        "reference": "#practitionerReferrer"
      },
      "code": [{
          "coding": [{
              "display": "Medical doctor",
              "system": "http://snomed.info/sct",
              "code": "112247003"
            }
          ],
          "text": "Medical doctor"
        }
      ],
      "identifier": [{
          "value": "kghf990"
        }
      ]
    }, {
      "resourceType": "Practitioner",
      "id": "practitionerReferrer",
      "extension": [{
          "url": "https://healthsamurai.github.io/ig-ae/StructureDefinition/Practitioner-vendorName",
          "valueString": "Partner Limited"
        }, {
          "url": "https://healthsamurai.github.io/ig-ae/StructureDefinition/Practitioner-programNumber",
          "valueString": "1234567890"
        }
      ],

      "name": [{
          "extension": [{
              "url": "https://healthsamurai.github.io/ig-ae/StructureDefinition/HumanName-salutation",
              "valueCodeableConcept": {
                "coding": [{
                    "code": "Mr",
                    "system": "https://healthsamurai.github.io/ig-ae/CodeSystem/humanname-salutation",
                    "display": "MR."
                  }
                ],
                "text": "Mr."
              }
            }
          ],
          "given": ["Barney"],
          "family": "Rubble"
        }
      ],
      "telecom": [{
          "system": "email",
          "value": "champion@astrazeneca.com"
        }

      ]
    }, {
      "resourceType": "PractitionerRole",
      "id": "practRoleSubmitter",
      "identifier": [{
          "value": "kghf990"
        }
      ],
      "practitioner": {
        "reference": "#practitionerSubmitter"
      },
      "code": [{
          "coding": [{
              "display": "Medical doctor",
              "system": "http://snomed.info/sct",
              "code": "112247003"
            }
          ],
          "text": "Medical doctor"
        }
      ],
      "specialty": [{
          "coding": [{
              "display": "Diabetic medicine",
              "system": "http://snomed.info/sct",
              "code": "408475000"
            }
          ],
          "text": "Diabetic medicine"
        }
      ],
      "organization": {
        "reference": "#orgSubmitter"
      }
    }, {
      "resourceType": "Practitioner",
      "id": "practitionerSubmitter",
      "extension": [{
          "url": "https://healthsamurai.github.io/ig-ae/StructureDefinition/Practitioner-relationship",
          "valueString": "Father"
        }, {
          "url": "https://healthsamurai.github.io/ig-ae/StructureDefinition/Practitioner-callbackMedicalAffairs",
          "valueBoolean": false
        }, {
          "url": "https://healthsamurai.github.io/ig-ae/StructureDefinition/Practitioner-dateDueCustomer",
          "valueDate": "2020-09-27"
        }, {
          "url": "https://healthsamurai.github.io/ig-ae/StructureDefinition/Practitioner-callback",
          "valueBoolean": false
        }
      ],
      "name": [{
          "extension": [{
              "url": "https://healthsamurai.github.io/ig-ae/StructureDefinition/HumanName-salutation",
              "valueCodeableConcept": {
                "coding": [{
                    "code": "Dr",
                    "system": "https://healthsamurai.github.io/ig-ae/CodeSystem/humanname-salutation",
                    "display": "DR."
                  }
                ],
                "text": "Dr."
              }
            }
          ],
          "given": ["Barney"],
          "family": "Rubble"
        }
      ],
      "telecom": [{
          "system": "email",
          "value": "champion@astrazeneca.com"
        }, {
          "system": "phone",
          "value": "0201231234"
        }, {
          "system": "other",
          "value": "123"
        }
      ],
      "address": [{
          "extension": [{
              "url": "https://healthsamurai.github.io/ig-ae/StructureDefinition/Address-region",
              "valueCodeableConcept": {
                "coding": [{
                    "code": "CHE",
                    "system": "https://healthsamurai.github.io/ig-ae/CodeSystem/address-region",
                    "display": "Cheshire"
                  }
                ],
                "text": "Le Cheshire"
              }
            }
          ],
          "line": ["Building 4", "1 High Street"],
          "city": "Macclesfield",
          "postalCode": "SW14 0EG",
          "country": "UK"
        }
      ]
    }, {
      "resourceType": "Organization",
      "id": "orgSubmitter",
      "name": "Macclesfield Hospital"
    }, {
      "resourceType": "Medication",
      "id": "medication01",
      "code": {
        "coding": [{
            "display": "Imfinzi",
            "code": "172_002000029076GB"
          }
        ],
        "text": "Imfinzi"
      }
    }
  ],
  "id": "MIR1",
  "extension": [{
      "url": "https://healthsamurai.github.io/ig-ae/StructureDefinition/Communication-location",
      "valueReference": {
        "reference": "#location"
      }
    }, {
      "url": "https://healthsamurai.github.io/ig-ae/StructureDefinition/Communication-reporterType",
      "valueString": "1"
    }, {
      "url": "https://healthsamurai.github.io/ig-ae/StructureDefinition/Communication-employeeVendor",
      "valueString": "AZ Employee"
    }, {
      "url": "https://healthsamurai.github.io/ig-ae/StructureDefinition/Communication-AZEmployeeReporter",
      "valueString": "0"
    }, {
      "url": "https://healthsamurai.github.io/ig-ae/StructureDefinition/Communication-congressAttended",
      "valueCodeableConcept": {
        "coding": [{
            "code": "AACR - American Association for Cancer Research",
            "display": "AACR - American Association for Cancer Research"
          }
        ],
        "text": "AACR - American Association for Cancer Research"
      }
    }
  ],
  "language": "en-GB",
  "text": {
    "status": "generated",
    "div": "<div xmlns=\"http://www.w3.org/1999/xhtml\" lang=\"en-GB\" xml:lang=\"en-GB\">Please send q4wk flat dosing in lung cancer and q4wk flat dosing in bladder cancer standard response letter (when available)</div>"
  },

  "status": "completed",
  "recipient": [{
      "reference": "#practRoleReferrer"
    }
  ],
  "medium": [{
      "coding": [{
          "display": "email",
          "system": "http://terminology.hl7.org/CodeSystem/v3-ParticipationMode",
          "code": "EMAILWRIT"
        }
      ],
      "text": "Emaile"
    }
  ],
  "about": [{
      "reference": "#medication01"
    }
  ],
  "sender": {
    "reference": "#practRoleSubmitter"
  },
  "payload": [{
      "contentAttachment": {
        "contentType": "application/pdf",
        "data": "QkFTRTY0LUVOQ09ERUQtUERGLURBVEEtR09FUy1JTi1IRVJF",
        "title": "TestDocument",
        "size": 36
      }
    }
  ],
  "note": [{
      "text": "4/2sent lung letter, waiting for bladder letter and will resend second package"
    }
  ]
}
